<?xml version="1.0" encoding="UTF-8"?>
<Bundle xmlns="http://hl7.org/fhir">
  <id value="Bundle-id-53388"/>
  <type value="transaction"/>
  <entry>
    <fullUrl value="https://www.cancercoreeurope.eu/fhir-xml/examples/Patient-id-53388"/>
    <resource>
      <Patient>
        <id value="Patient-id-53388"/>
        <identifier>
          <value value="Patient-src-identifier-53388"/>
        </identifier>
        <gender value="male"/>
        <birthDate value="2158-07-29"/>
      </Patient>
    </resource>
    <request>
      <method value="PUT"/>
      <url value="Patient/Patient-id-53388"/>
    </request>
  </entry>
  <entry>
    <fullUrl value="https://www.cancercoreeurope.eu/fhir-xml/examples/Condition-id-53388"/>
    <resource>
      <Condition>
        <id value="Condition-id-53388"/>
        <code>
          <coding>
            <system value="http://fhir.de/CodeSystem/bfarm/icd-10-gm"/>
            <version value="2019"/>
            <code value="C34.0"/>
          </coding>
        </code>
        <bodySite>
          <coding>
            <system value="urn:oid:2.16.840.1.113883.6.43.1"/>
            <version value="31"/>
            <code value="C34.0"/>
          </coding>
          <coding>
            <system value="https://www.cancercoreeurope.eu/fhir/core/CodeSystem/SitelocationCS"/>
            <code value="N"/>
          </coding>
        </bodySite>
        <subject>
          <reference value="Patient/Patient-id-53388"/>
        </subject>
        <onsetDateTime value="2021-02-02"/>
        <recordedDate value="2021-02-02"/>
      </Condition>
    </resource>
    <request>
      <method value="PUT"/>
      <url value="Condition/Condition-id-53388"/>
    </request>
  </entry>
  <entry>
    <fullUrl value="https://www.cancercoreeurope.eu/fhir-xml/examples/Radiotherapy-id-53388"/>
    <resource>
      <Procedure>
        <id value="Radiotherapy-id-53388"/>
        <status id="successful"/>
        <category>
          <coding>
            <system value="https://www.cancercoreeurope.eu/fhir/core/CodeSystem/SYSTTherapyTypeCS"/>
            <code value="RT"/>
            <display value="Radiotherapy"/>
          </coding>
        </category>
        <subject>
          <reference value="Patient/Patient-id-53388"/>
        </subject>
        <performedPeriod>
          <start value="1931-07-20"/>
          <end value="1931-08-04"/>
        </performedPeriod>
        <reasonReference>
          <reference value="Condition/Condition-id-53388"/>
        </reasonReference>
      </Procedure>
    </resource>
    <request>
      <method value="PUT"/>
      <url value="Procedure/Radiotherapy-id-53388"/>
    </request>
  </entry>
</Bundle>