<?xml version="1.0" encoding="UTF-8"?>
<Bundle xmlns="http://hl7.org/fhir">
    <id value="752" />
    <type value="transaction" />
    <entry>
        <fullUrl value="https://www.cancercoreeurope.eu/fhir-xml/examples/Patient-identifier-102" />
        <resource>
            <Patient>
                <id value="Patient-identifier-102" />
                <gender value="female" />
                <birthDate value="1931-05-10" />
            </Patient>
        </resource>
        <request>
            <method value="PUT" />
            <url value="Patient/Patient-identifier-102" />
        </request>
    </entry>
    <entry>
        <fullUrl value="https://www.cancercoreeurope.eu/fhir-xml/examples/Specimen-identifier-102" />
        <resource>
            <Specimen>
                <id value="Specimen-identifier-102" />
                <type>
                    <coding>
                        <system
                            value="https://www.cancercoreeurope.eu/fhir/CodeSystem/CodeSystem-cce-core-CodeSystem-SampleMaterialType" />
                        <code value="rna" />
                    </coding>
                </type>
                <subject>
                    <reference value="Patient/Patient-identifier-102" />
                </subject>
                <collection>
                    <collectedDateTime value="2021-02-02" />
                </collection>
            </Specimen>
        </resource>
        <request>
            <method value="PUT" />
            <url value="Specimen/Specimen-identifier-102" />
        </request>
    </entry>
    <entry>
        <fullUrl value="https://www.cancercoreeurope.eu/fhir-xml/examples/Condition-identifier-102" />
        <resource>
            <Condition>
                <id value="Condition-identifier-102" />
                <code>
                    <coding>
                        <system value="http://fhir.de/CodeSystem/bfarm/icd-10-gm" />
                        <version value="2004" />
                        <code value="C34.0" />
                    </coding>
                </code>
                <bodySite>
                    <coding>
                        <system value="urn:oid:2.16.840.1.113883.6.43.1" />
                        <version value="31" />
                        <code value="C34.0" />
                    </coding>
                    <coding>
                        <system
                            value="https://www.cancercoreeurope.eu/fhir/core/CodeSystem/SitelocationCS" />
                        <code value="C" />
                    </coding>
                </bodySite>
                <subject>
                    <reference value="Patient/Patient-identifier-102" />
                </subject>
                <onsetDateTime value="2021-02-02" />
                <recordedDate value="2021-02-02" />
            </Condition>
        </resource>
        <request>
            <method value="PUT" />
            <url value="Condition/Condition-identifier-102" />
        </request>
    </entry>
    <entry>
        <fullUrl value="https://www.cancercoreeurope.eu/fhir-xml/examples/Histology-identifier-102" />
        <resource>
            <Observation>
                <id value="Histology-identifier-102" />
                <status value="final" />
                <code>
                    <text value="some code" />
                </code>
                <subject>
                    <reference value="Patient/Patient-identifier-102" />
                </subject>
                <focus>
                    <reference value="Condition/Condition-identifier-102" />
                </focus>
                <effectiveDateTime value="2177-08-14" />
                <valueCodeableConcept>
                    <coding>
                        <system value="urn:oid:2.16.840.1.113883.6.43.1" />
                        <version value="31" />
                        <code value="8140/3" />
                    </coding>
                </valueCodeableConcept>
            </Observation>
        </resource>
        <request>
            <method value="PUT" />
            <url value="Observation/Histology-identifier-102" />
        </request>
    </entry>
    <entry>
        <fullUrl value="https://www.cancercoreeurope.eu/fhir-xml/examples/Procedure-identifier-102" />
        <resource>
            <Procedure>
                <id value="Procedure-identifier-102" />
                <status id="successful" />
                <category>
                    <coding>
                        <system
                            value="https://www.cancercoreeurope.eu/fhir/core/CodeSystem/SYSTTherapyTypeCS" />
                        <code value="BM" />
                        <display value="Bone marrow transplantation" />
                    </coding>
                </category>
                <subject>
                    <reference value="Patient/Patient-identifier-102" />
                </subject>
                <performedDateTime value="1930-11-20" />
                <reasonReference>
                    <reference value="Condition/Condition-identifier-102" />
                </reasonReference>
            </Procedure>
        </resource>
        <request>
            <method value="PUT" />
            <url value="Procedure/Procedure-identifier-102" />
        </request>
    </entry>
    <entry>
        <fullUrl
            value="https://www.cancercoreeurope.eu/fhir-xml/examples/SystemicTherapy-identifier-102" />
        <resource>
            <MedicationStatement>
                <id value="SystemicTherapy-identifier-102" />
                <status id="ongoing" />
                <category>
                    <coding>
                        <system
                            value="https://www.cancercoreeurope.eu/fhir/core/CodeSystem/SYSTTherapyTypeCS" />
                        <code value="HO" />
                    </coding>
                </category>
                <medicationReference>
                    <reference value="medicine" />
                </medicationReference>
                <subject>
                    <reference value="Patient/Patient-identifier-102" />
                </subject>
                <effectivePeriod>
                    <start value="2021-06-12" />
                    <end value="2021-06-21" />
                </effectivePeriod>
                <reasonReference>
                    <reference value="Condition/Condition-identifier-102" />
                </reasonReference>
            </MedicationStatement>
        </resource>
        <request>
            <method value="PUT" />
            <url value="MedicationStatement/SystemicTherapy-identifier-102" />
        </request>
    </entry>
</Bundle>